Folder: runlin_BLOG/TG

Note: README.md
# runlin_blog
这是我的博客。我用它作为我的学习备忘录。
This is my blog. I use it as my learning note pad.

File: date.csv
#FILE:                       ,sws-10k.dsv
#FORMAT:                     ,NETZSCH5
#IDENTITY:                   ,1
#DECIMAL:                    ,POINT
#SEPARATOR:                  ,COMMA
#MTYPE:                      ,DTA
#MSUBTYPE:                   ,
#INSTRUMENT:                 ,NETZSCH STA 409 PC/PG
#PROJECT:                    ,
#DATE/TIME:                  ,2002-1-2 15:27:37
#CORR. FILE:                 ,10k.bsv
#LABORATORY:                 ,
#OPERATOR:                   ,1
#REMARK:                     ,
#SAMPLE:                     ,1
#SAMPLE MASS /mg:            ,29.908
#MATERIAL:                   ,
#REFERENCE:                  ,yes
#REFERENCE MASS /mg:         ,0.000
#TYPE OF CRUCIBLE:           ,DTA/TG crucible Al2O3
#SAMPLE CRUCIBLE MASS /mg:   ,0.000
#REFERENCE CRUCIBLE MASS /mg:,0.000
#GAS 1:                      ,
#FLOW RATE 1:                ,
#GAS 2:                      ,air
#FLOW RATE 2 /(ml/min):      ,50
#CORR. CODE:                 ,820
#EXO:                        ,+1
#RANGE:                      ,30/10.0(K/min)/1000
#SEGMENT:                    ,S1/1

##Temp./°„C,Time/min,DTA/(uV/mg),Mass/%,DTG/(%/min),Sensit./(¶ÃV/mW)
 32.61400,0.0000e+000, 2.4846e-002,100, 2.0700e-002,1.00000
 40.11400,    3.36243,-9.3221e-002,100.064, 3.5870e-002,1.00000
 47.61400,    4.15303,    -0.15492,100.091, 3.0483e-002,1.00000
 55.11400,    4.78047,    -0.20304,100.105, 9.2202e-003,1.00000
 62.61400,    5.33710,    -0.24227,100.102,-1.7810e-002,1.00000
 70.11400,    5.86117,    -0.27483,100.086,-4.3916e-002,1.00000
 77.61400,    6.37243,    -0.30172,100.058,-6.7417e-002,1.00000
 85.11400,    6.88262,    -0.32317,100.017,-8.9717e-002,1.00000
 92.61400,    7.39552,    -0.33877, 99.96608,    -0.10980,1.00000
100.114,    7.91869,    -0.34829, 99.90452,    -0.12411,1.00000
107.614,    8.46116,    -0.35164, 99.83516,    -0.13000,1.00000
115.114,    9.02880,    -0.34895, 99.76187,    -0.12663,1.00000
122.614,    9.62295,    -0.34075, 99.68972,    -0.11528,1.00000
130.114,   10.24085,    -0.32808, 99.62288,    -0.10119,1.00000
137.614,   10.88065,    -0.31236, 99.56240,-8.8072e-002,1.00000
145.114,   11.53942,    -0.29516, 99.50872,-7.4990e-002,1.00000
152.614,   12.21415,    -0.27760, 99.46226,-6.3061e-002,1.00000
160.114,   12.90218,    -0.26035, 99.42243,-5.3309e-002,1.00000
167.614,   13.60140,    -0.24383, 99.38731,-4.7867e-002,1.00000
175.114,   14.30695,    -0.22806, 99.35505,-4.3198e-002,1.00000
182.614,   15.01530,    -0.21296, 99.32630,-3.8687e-002,1.00000
190.114,   15.72647,    -0.19832, 99.29870,-3.9690e-002,1.00000
197.614,   16.43914,    -0.18378, 99.26983,-4.0555e-002,1.00000
205.114,   17.15650,    -0.16897, 99.24222,-3.5496e-002,1.00000
212.614,   17.87899,    -0.15388, 99.21911,-2.8706e-002,1.00000
220.114,   18.60564,    -0.13861, 99.20058,-2.2121e-002,1.00000
227.614,   19.33599,    -0.12326, 99.18610,-1.9307e-002,1.00000
235.114,   20.07084,    -0.10796, 99.16970,-2.5896e-002,1.00000
242.614,   20.80906,-9.2729e-002, 99.14960,-2.6507e-002,1.00000
250.114,   21.55060,-7.7667e-002, 99.13259,-1.8930e-002,1.00000
257.614,   22.29438,-6.2558e-002, 99.12055,-1.4901e-002,1.00000
265.114,   23.04112,-4.6910e-002, 99.10850,-1.7904e-002,1.00000
272.614,   23.78906,-3.0835e-002, 99.09417,-2.0036e-002,1.00000
280.114,   24.53913,-1.4757e-002, 99.07805,-2.3695e-002,1.00000
287.614,   25.29173, 1.2608e-003, 99.05789,-2.9931e-002,1.00000
295.114,   26.04606, 1.7250e-002, 99.03279,-3.6964e-002,1.00000
302.614,   26.80221, 3.2746e-002, 99.00177,-4.4795e-002,1.00000
310.114,   27.55895, 4.8358e-002, 98.96559,-5.0993e-002,1.00000
317.614,   28.31681, 6.4885e-002, 98.92321,-6.1997e-002,1.00000
325.114,   29.07586, 8.1951e-002, 98.87029,-7.7981e-002,1.00000
332.614,   29.83576, 9.8101e-002, 98.80397,-9.7421e-002,1.00000
340.114,   30.59755,     0.11046, 98.72024,    -0.12361,1.00000
347.614,   31.36012,     0.11699, 98.61408,    -0.15598,1.00000
355.114,   32.12418,     0.11883, 98.47865,    -0.20244,1.00000
362.614,   32.88798,     0.11715, 98.29707,    -0.27886,1.00000
370.114,   33.65252,     0.11128, 98.04536,    -0.38278,1.00000
377.614,   34.41670,     0.10043, 97.70876,    -0.49973,1.00000
385.114,   35.18111, 8.5101e-002, 97.28109,    -0.61730,1.00000
392.614,   35.95001, 6.9493e-002, 96.76948,    -0.70400,1.00000
400.114,   36.71920, 6.3596e-002, 96.21835,    -0.71300,1.00000
407.614,   37.48500, 7.3872e-002, 95.69607,    -0.64085,1.00000
415.114,   38.25091, 9.6396e-002, 95.24393,    -0.53917,1.00000
422.614,   39.01632,     0.12606, 94.87029,    -0.43569,1.00000
430.114,   39.78033,     0.16140, 94.58134,    -0.31922,1.00000
437.614,   40.54344,     0.19870, 94.37914,    -0.21687,1.00000
445.114,   41.30662,     0.23162, 94.23943,    -0.15628,1.00000
452.614,   42.06677,     0.25670, 94.13280,    -0.12848,1.00000
460.114,   42.82795,     0.27395, 94.03931,    -0.11937,1.00000
467.614,   43.58951,     0.28573, 93.94913,    -0.11830,1.00000
475.114,   44.34911,     0.29421, 93.85799,    -0.12259,1.00000
482.614,   45.10957,     0.30100, 93.76232,    -0.12866,1.00000
490.114,   45.86878,     0.30775, 93.66284,    -0.13392,1.00000
497.614,   46.62762,     0.31459, 93.55725,    -0.14537,1.00000
505.114,   47.38653,     0.32103, 93.44216,    -0.15765,1.00000
512.614,   48.14392,     0.32689, 93.31714,    -0.17423,1.00000
520.114,   48.90284,     0.33168, 93.17578,    -0.19882,1.00000
527.614,   49.66164,     0.33549, 93.01541,    -0.22390,1.00000
535.114,   50.41960,     0.33840, 92.83558,    -0.25140,1.00000
542.614,   51.17794,     0.34020, 92.63264,    -0.28510,1.00000
550.114,   51.93487,     0.34102, 92.40212,    -0.32435,1.00000
557.614,   52.69170,     0.34064, 92.14242,    -0.36085,1.00000
565.114,   53.44836,     0.33886, 91.85774,    -0.39034,1.00000
572.614,   54.20431,     0.33508, 91.55319,    -0.41559,1.00000
580.114,   54.96099,     0.32827, 91.22712,    -0.44848,1.00000
587.614,   55.71765,     0.31715, 90.86994,    -0.50004,1.00000
595.114,   56.47493,     0.30014, 90.46140,    -0.58562,1.00000
602.614,   57.23091,     0.27639, 89.97564,    -0.70358,1.00000
610.114,   57.98789,     0.24674, 89.39327,    -0.83566,1.00000
617.614,   58.74438,     0.21373, 88.71371,    -0.95650,1.00000
625.114,   59.50045,     0.18125, 87.95607,    -1.03938,1.00000
632.614,   60.25653,     0.15568, 87.15609,    -1.06603,1.00000
640.114,   61.01189,     0.14240, 86.35996,    -1.03307,1.00000
647.614,   61.76681,     0.14159, 85.60320,    -0.97182,1.00000
655.114,   62.52205,     0.14871, 84.88653,    -0.93057,1.00000
662.614,   63.27682,     0.15695, 84.19965,    -0.88071,1.00000
670.114,   64.03055,     0.16182, 83.57815,    -0.75360,1.00000
677.614,   64.78413,     0.16345, 83.07772,    -0.57232,1.00000
685.114,   65.53660,     0.16266, 82.70857,    -0.41918,1.00000
692.614,   66.29058,     0.15952, 82.43016,    -0.32894,1.00000
700.114,   67.04436,     0.15552, 82.20382,    -0.27409,1.00000
707.614,   67.79685,     0.15330, 82.01758,    -0.21876,1.00000
715.114,   68.54946,     0.15448, 81.87782,    -0.15179,1.00000
722.614,   69.30154,     0.15840, 81.78687,-9.3676e-002,1.00000
730.114,   70.05408,     0.16203, 81.73086,-5.9016e-002,1.00000
737.614,   70.80641,     0.16361, 81.69356,-4.2628e-002,1.00000
745.114,   71.55775,     0.16343, 81.66412,-3.6732e-002,1.00000
752.614,   72.30947,     0.16122, 81.63788,-3.3317e-002,1.00000
760.114,   73.06136,     0.15752, 81.61276,-3.4857e-002,1.00000
767.614,   73.81311,     0.15373, 81.58433,-4.0384e-002,1.00000
775.114,   74.56441,     0.14996, 81.55408,-3.8405e-002,1.00000
782.614,   75.31503,     0.14640, 81.52839,-2.9778e-002,1.00000
790.114,   76.06563,     0.14561, 81.50813,-2.5767e-002,1.00000
797.614,   76.81653,     0.15259, 81.48856,-2.5770e-002,1.00000
805.114,   77.56746,     0.17835, 81.47102,-2.0258e-002,1.00000
812.614,   78.31647,     0.25283, 81.45818,-1.4337e-002,1.00000
820.114,   79.06351,     0.37304, 81.44920,-9.7450e-003,1.00000
827.614,   79.81303,     0.41857, 81.44383,-4.4454e-003,1.00000
835.114,   80.56570,     0.33746, 81.44223,-3.1166e-004,1.00000
842.614,   81.31826,     0.24257, 81.44289, 2.0584e-003,1.00000
850.114,   82.07110,     0.19539, 81.44544, 4.6634e-003,1.00000
857.614,   82.82205,     0.18147, 81.44923, 4.5146e-003,1.00000
865.114,   83.57150,     0.18183, 81.45087,-5.6801e-004,1.00000
872.614,   84.32131,     0.18759, 81.44901,-3.2484e-003,1.00000
880.114,   85.07078,     0.19514, 81.44784, 1.0407e-003,1.00000
887.614,   85.81989,     0.20309, 81.45060, 5.5747e-003,1.00000
895.114,   86.56932,     0.21159, 81.45504, 5.5841e-003,1.00000
902.614,   87.31782,     0.22015, 81.45774, 8.8543e-004,1.00000
910.114,   88.06659,     0.22719, 81.45688,-1.7152e-003,1.00000
917.614,   88.81654,     0.23239, 81.45682, 1.5432e-003,1.00000
925.114,   89.56501,     0.23646, 81.45822, 1.8455e-003,1.00000
932.614,   90.31386,     0.24038, 81.46033, 4.5844e-003,1.00000
940.114,   91.06318,     0.24491, 81.46531, 8.1959e-003,1.00000
947.614,   91.81203,     0.25020, 81.47148, 7.4092e-003,1.00000
955.114,   92.56094,     0.25569, 81.47553, 3.4962e-003,1.00000
962.614,   93.31088,     0.26080, 81.47799, 4.1159e-003,1.00000
970.114,   94.05873,     0.26529, 81.48180, 5.1692e-003,1.00000
977.614,   94.80701,     0.26924, 81.48470, 2.6143e-003,1.00000
985.114,   95.55436,     0.27329, 81.48594, 3.0379e-004,1.00000
992.614,   96.30300,     0.27742, 81.48448,-4.2238e-003,1.00000
997.614,   96.80294,     0.27997, 81.48186,-1.5176e-003,1.00000