Folder: runlin_BLOG/xrd

Note: README.md
# runlin_blog
这是我的博客。我用它作为我的学习备忘录。
This is my blog. I use it as my learning note pad.

File: xrd.txt
5.0000    30
5.2400    30
5.4800    19
5.7200    26
5.9600    43
6.2000    54
6.4400    20
6.6800    21
6.9200    22
7.1600    28
7.4000    20
7.6400    26
7.8800    24
8.1200    23
8.3600    20
8.6000    33
8.8400    50
9.0800    29
9.3200    20
9.5600    16
9.8000    16
10.0400   11
10.2800   14
10.5200   12
10.7600   12
11.0000   6
11.2400   6
11.4800   7
11.7200   12
11.9600   13
12.2000   42
12.4400   51
12.6800   15
12.9200   11
13.1600   8
13.4000   11
13.6400   7
13.8800   4
14.1200   5
14.3600   8
14.6000   7
14.8400   8
15.0800   12
15.3200   13
15.5600   6
15.8000   7
16.0400   7
16.2800   5
16.5200   7
16.7600   6
17.0000   7
17.2400   8
17.4800   15
17.7200   34
17.9600   24
18.2000   15
18.4400   14
18.6800   21
18.9200   17
19.1600   12
19.4000   15
19.6400   21
19.8800   49
20.1200   22
20.3600   25
20.6000   20
20.8400   108
21.0800   20
21.3200   21
21.5600   12
21.8000   17
22.0400   14
22.2800   13
22.5200   18
22.7600   17
23.0000   14
23.2400   10
23.4800   21
23.7200   12
23.9600   18
24.2000   23
24.4400   22
24.6800   29
24.9200   37
25.1600   43
25.4000   30
25.6400   24
25.8800   19
26.1200   22
26.3600   49
26.6000   389
26.8400   123
27.0800   36
27.3200   32
27.5600   28
27.8000   32
28.0400   55
28.2800   23
28.5200   12
28.7600   20
29.0000   17
29.2400   16
29.4800   8
29.7200   13
29.9600   26
30.2000   20
30.4400   17
30.6800   16
30.9200   16
31.1600   13
31.4000   21
31.6400   15
31.8800   8
32.1200   20
32.3600   8
32.6000   7
32.8400   8
33.0800   8
33.3200   12
33.5600   13
33.8000   13
34.0400   12
34.2800   13
34.5200   26
34.7600   26
35.0000   48
35.2400   23
35.4800   19
35.7200   14
35.9600   16
36.2000   12
36.4400   23
36.6800   47
36.9200   17
37.1600   9
37.4000   12
37.6400   22
37.8800   22
38.1200   18
38.3600   13
38.6000   9
38.8400   13
39.0800   8
39.3200   6
39.5600   58
39.8000   11
40.0400   11
40.2800   14
40.5200   16
40.7600   5
41.0000   5
41.2400   8
41.4800   11
41.7200   5
41.9600   13
42.2000   15
42.4400   34
42.6800   24
42.9200   17
43.1600   7
43.4000   10
43.6400   8
43.8800   12
44.1200   9
44.3600   12
44.6000   8
44.8400   10
45.0800   20
45.3200   36
45.5600   28
45.8000   33
46.0400   22
46.2800   13
46.5200   3
46.7600   12
47.0000   8
47.2400   4
47.4800   7
47.7200   9
47.9600   11
48.2000   8
48.4400   6
48.6800   6
48.9200   4
49.1600   7
49.4000   6
49.6400   6
49.8800   6
50.1200   51
50.3600   50
50.6000   6
50.8400   11
51.0800   5
51.3200   4
51.5600   2
51.8000   8
52.0400   5
52.2800   7
52.5200   8
52.7600   9
53.0000   4
53.2400   6
53.4800   11
53.7200   8
53.9600   16
54.2000   3
54.4400   8
54.6800   12
54.9200   28
55.1600   26
55.4000   26
55.6400   20
55.8800   17
56.1200   9
56.3600   7
56.6000   16
56.8400   6
57.0800   17
57.3200   11
57.5600   4
57.8000   11
58.0400   7
58.2800   9
58.5200   10
58.7600   13
59.0000   9
59.2400   12
59.4800   11
59.7200   15
59.9600   39
60.0000   45